Voltage[V]	Current[mA]
50.000000	4.091897E-6
50.010000	3.404480E-6
50.020000	4.512554E-6
50.030000	4.683974E-6
50.040000	3.526745E-6
50.050000	3.371751E-6
50.060000	4.915805E-6
50.070000	4.527233E-6
50.080000	3.806470E-6
50.090000	3.374258E-6
50.100000	3.096797E-6
50.110000	3.404391E-6
50.120000	3.568646E-6
50.130000	4.825714E-6
50.140000	4.838820E-6
50.150000	3.969356E-6
50.160000	4.988279E-6
50.170000	4.142638E-6
50.180000	4.986104E-6
50.190000	4.825373E-6
50.200000	3.474479E-6
50.210000	3.491952E-6
50.220000	5.004241E-6
50.230000	3.279147E-6
50.240000	5.200731E-6
50.250000	5.231873E-6
50.260000	3.084156E-6
50.270000	3.247423E-6
50.280000	5.040389E-6
50.290000	3.875760E-6
50.300000	3.346795E-6
50.310000	4.817890E-6
50.320000	5.323538E-6
50.330000	4.237257E-6
50.340000	4.404384E-6
50.350000	3.592437E-6
50.360000	5.099797E-6
50.370000	5.232959E-6
50.380000	3.517599E-6
50.390000	3.816782E-6
50.400000	4.352840E-6
50.410000	3.635553E-6
50.420000	4.162431E-6
50.430000	4.856512E-6
50.440000	3.366099E-6
50.450000	5.460538E-6
50.460000	5.364262E-6
50.470000	4.141528E-6
50.480000	5.260608E-6
50.490000	3.849417E-6
50.500000	3.847834E-6
50.510000	3.854587E-6
50.520000	3.876802E-6
50.530000	3.862024E-6
50.540000	3.870044E-6
50.550000	3.867814E-6
50.560000	3.880528E-6
50.570000	3.882259E-6
50.580000	3.884998E-6
50.590000	3.901665E-6
50.600000	3.897632E-6
50.610000	3.907659E-6
50.620000	3.914249E-6
50.630000	3.918681E-6
50.640000	3.924462E-6
50.650000	3.933270E-6
50.660000	3.942459E-6
50.670000	3.943285E-6
50.680000	4.026690E-6
50.690000	3.987856E-6
50.700000	3.967106E-6
50.710000	3.971222E-6
50.720000	3.982483E-6
50.730000	3.982290E-6
50.740000	3.596863E-6
50.750000	3.605364E-6
50.760000	4.010766E-6
50.770000	4.014894E-6
50.780000	4.015074E-6
50.790000	4.012250E-6
50.800000	4.038951E-6
50.810000	4.032879E-6
50.820000	4.033550E-6
50.830000	4.033658E-6
50.840000	4.055750E-6
50.850000	4.039281E-6
50.860000	4.058278E-6
50.870000	4.056357E-6
50.880000	4.071598E-6
50.890000	4.061319E-6
50.900000	4.083239E-6
50.910000	4.082938E-6
50.920000	4.087050E-6
50.930000	4.088036E-6
50.940000	4.105317E-6
50.950000	4.111574E-6
50.960000	4.121678E-6
50.970000	6.026717E-6
50.980000	3.596631E-6
50.990000	6.169119E-6
51.000000	3.669484E-6
51.010000	6.524637E-6
51.020000	3.985169E-6
51.030000	4.077552E-6
51.040000	4.848540E-6
51.050000	4.257016E-6
51.060000	5.143032E-6
51.070000	4.137105E-6
51.080000	5.688849E-6
51.090000	4.159182E-6
51.100000	4.193871E-6
51.110000	6.576026E-6
51.120000	4.103589E-6
51.130000	6.795317E-6
51.140000	4.194749E-6
51.150000	5.754544E-6
51.160000	6.417396E-6
51.170000	3.963629E-6
51.180000	6.880357E-6
51.190000	4.287470E-6
51.200000	5.101676E-6
51.210000	4.332125E-6
51.220000	4.782370E-6
51.230000	4.546092E-6
51.240000	5.396066E-6
51.250000	5.057986E-6
51.260000	7.239497E-6
51.270000	6.976290E-6
51.280000	4.517715E-6
51.290000	7.309075E-6
51.300000	7.136620E-6
51.310000	4.562241E-6
51.320000	4.312216E-6
51.330000	6.052324E-6
51.340000	4.567250E-6
51.350000	4.599556E-6
51.360000	4.643950E-6
51.370000	4.711042E-6
51.380000	4.765904E-6
51.390000	4.828399E-6
51.400000	5.606772E-6
51.410000	6.337313E-6
51.420000	5.071580E-6
51.430000	8.347149E-6
51.440000	5.825992E-6
51.450000	8.415010E-6
51.460000	5.594620E-6
51.470000	7.032118E-6
51.480000	5.935251E-6
51.490000	6.133154E-6
51.500000	6.306154E-6
51.510000	6.610247E-6
51.520000	6.872066E-6
51.530000	7.135635E-6
51.540000	1.033174E-5
51.550000	7.721418E-6
51.560000	9.770745E-6
51.570000	8.374459E-6
51.580000	8.750999E-6
51.590000	9.209658E-6
51.600000	9.512030E-6
51.610000	9.952395E-6
51.620000	1.178795E-5
51.630000	1.319234E-5
51.640000	1.317393E-5
51.650000	1.327934E-5
51.660000	1.321698E-5
51.670000	1.227201E-5
51.680000	1.566111E-5
51.690000	1.522173E-5
51.700000	1.588677E-5
51.710000	1.641643E-5
51.720000	1.745376E-5
51.730000	1.544943E-5
51.740000	1.804503E-5
51.750000	1.869999E-5
51.760000	1.707700E-5
51.770000	1.909715E-5
51.780000	1.912939E-5
51.790000	2.057170E-5
51.800000	2.036052E-5
51.810000	2.099839E-5
51.820000	2.194682E-5
51.830000	2.235513E-5
51.840000	2.324520E-5
51.850000	2.389235E-5
51.860000	2.447997E-5
51.870000	2.538073E-5
51.880000	2.627550E-5
51.890000	2.672427E-5
51.900000	2.764843E-5
51.910000	2.830230E-5
51.920000	2.927260E-5
51.930000	3.011975E-5
51.940000	3.081557E-5
51.950000	3.194667E-5
51.960000	3.281117E-5
51.970000	3.316221E-5
51.980000	3.449955E-5
51.990000	3.516641E-5
52.000000	3.614277E-5
52.010000	3.708981E-5
52.020000	3.794039E-5
52.030000	3.905498E-5
52.040000	3.936720E-5
52.050000	4.050585E-5
52.060000	4.146930E-5
52.070000	4.284584E-5
52.080000	4.358748E-5
52.090000	4.452312E-5
52.100000	4.592142E-5
52.110000	4.625190E-5
52.120000	4.792023E-5
52.130000	4.895443E-5
52.140000	4.969971E-5
52.150000	5.057911E-5
52.160000	5.179363E-5
52.170000	5.262115E-5
52.180000	5.383342E-5
52.190000	5.459955E-5
52.200000	5.628973E-5
52.210000	5.718037E-5
52.220000	5.825637E-5
52.230000	5.986065E-5
52.240000	6.070400E-5
52.250000	6.180132E-5
52.260000	6.313137E-5
52.270000	6.379878E-5
52.280000	6.546666E-5
52.290000	6.663765E-5
52.300000	6.800781E-5
52.310000	6.904061E-5
52.320000	7.051775E-5
52.330000	7.164125E-5
52.340000	7.286557E-5
52.350000	7.384411E-5
52.360000	7.611598E-5
52.370000	7.619931E-5
52.380000	7.850436E-5
52.390000	7.914105E-5
52.400000	8.057051E-5
52.410000	8.174176E-5
52.420000	8.277437E-5
52.430000	8.401720E-5
52.440000	8.624163E-5
52.450000	8.655442E-5
52.460000	8.863966E-5
52.470000	9.007164E-5
52.480000	9.133066E-5
52.490000	9.186503E-5
52.500000	9.413047E-5
52.510000	9.566045E-5
52.520000	9.732083E-5
52.530000	9.821262E-5
52.540000	9.990626E-5
52.550000	0.000101
52.560000	0.000103
52.570000	0.000105
52.580000	0.000107
52.590000	0.000108
52.600000	0.000110
52.610000	0.000111
52.620000	0.000113
52.630000	0.000115
52.640000	0.000116
52.650000	0.000118
52.660000	0.000119
52.670000	0.000121
52.680000	0.000122
52.690000	0.000123
52.700000	0.000126
52.710000	0.000128
52.720000	0.000129
52.730000	0.000131
52.740000	0.000132
52.750000	0.000133
52.760000	0.000136
52.770000	0.000138
52.780000	0.000138
52.790000	0.000141
52.800000	0.000142
52.810000	0.000144
52.820000	0.000145
52.830000	0.000147
52.840000	0.000149
52.850000	0.000151
52.860000	0.000153
52.870000	0.000154
52.880000	0.000156
52.890000	0.000158
52.900000	0.000160
52.910000	0.000162
52.920000	0.000164
52.930000	0.000165
52.940000	0.000167
52.950000	0.000170
52.960000	0.000171
52.970000	0.000174
52.980000	0.000175
52.990000	0.000176
53.000000	0.000178
53.010000	0.000181
53.020000	0.000181
53.030000	0.000185
53.040000	0.000186
53.050000	0.000188
53.060000	0.000189
53.070000	0.000192
53.080000	0.000194
53.090000	0.000197
53.100000	0.000198
53.110000	0.000200
53.120000	0.000201
53.130000	0.000204
53.140000	0.000205
53.150000	0.000207
53.160000	0.000209
53.170000	0.005623
53.180000	0.000213
53.190000	0.000217
53.200000	0.000218
53.210000	0.000220
53.220000	0.000222
53.230000	0.000224
53.240000	0.000226
53.250000	0.000228
53.260000	0.000231
53.270000	0.000232
53.280000	0.000236
53.290000	0.000237
53.300000	0.000239
53.310000	0.000241
53.320000	0.000244
53.330000	0.000247
53.340000	0.000250
53.350000	0.000251
53.360000	0.000252
53.370000	0.000255
53.380000	0.000258
53.390000	0.000260
53.400000	0.000261
53.410000	0.000263
53.420000	0.000266
53.430000	0.000268
53.440000	0.000271
53.450000	0.000272
53.460000	0.000276
53.470000	0.000278
53.480000	0.000279
53.490000	0.000282
53.500000	0.000284
53.510000	0.000289
53.520000	0.000290
53.530000	0.000291
53.540000	0.000296
53.550000	0.000296
53.560000	0.000297
53.570000	0.000302
53.580000	0.000306
53.590000	0.000305
53.600000	0.000310
53.610000	0.000312
53.620000	0.000316
53.630000	0.000316
53.640000	0.000319
53.650000	0.000321
53.660000	0.000322
53.670000	0.000328
53.680000	0.000327
53.690000	0.000331
53.700000	0.000334
53.710000	0.000336
53.720000	0.000340
53.730000	0.000343
53.740000	0.000344
53.750000	0.000345
53.760000	0.000348
53.770000	0.000353
53.780000	0.000356
53.790000	0.000358
53.800000	0.000360
53.810000	0.000361
53.820000	0.000367
53.830000	0.000367
53.840000	0.000370
53.850000	0.000373
53.860000	0.000375
53.870000	0.000380
53.880000	0.000381
53.890000	0.000385
53.900000	0.000385
53.910000	0.000389
53.920000	0.000391
53.930000	0.000396
53.940000	0.000397
53.950000	0.000401
53.960000	0.000403
53.970000	0.000407
53.980000	0.000409
53.990000	0.000411
54.000000	0.000413
