Voltage[V]	Current[mA]
50.000000	4.923138E-6
50.010000	3.425403E-6
50.020000	4.026126E-6
50.030000	4.860459E-6
50.040000	3.224769E-6
50.050000	3.576662E-6
50.060000	4.916208E-6
50.070000	3.239277E-6
50.080000	4.866551E-6
50.090000	4.982767E-6
50.100000	3.702934E-6
50.110000	5.237742E-6
50.120000	4.267164E-6
50.130000	3.696470E-6
50.140000	4.319521E-6
50.150000	5.046812E-6
50.160000	3.268196E-6
50.170000	4.033073E-6
50.180000	4.391491E-6
50.190000	3.659372E-6
50.200000	4.216908E-6
50.210000	4.823547E-6
50.220000	3.776799E-6
50.230000	5.449680E-6
50.240000	3.702752E-6
50.250000	4.161383E-6
50.260000	5.240312E-6
50.270000	3.530052E-6
50.280000	5.432423E-6
50.290000	3.981761E-6
50.300000	3.934060E-6
50.310000	5.380296E-6
50.320000	3.868779E-6
50.330000	5.133620E-6
50.340000	5.361316E-6
50.350000	3.816269E-6
50.360000	4.086960E-6
50.370000	5.421652E-6
50.380000	3.898098E-6
50.390000	5.656640E-6
50.400000	5.427570E-6
50.410000	3.579949E-6
50.420000	5.093970E-6
50.430000	5.290202E-6
50.440000	3.913377E-6
50.450000	5.616490E-6
50.460000	3.860285E-6
50.470000	3.285332E-6
50.480000	5.778258E-6
50.490000	3.538510E-6
50.500000	3.708480E-6
50.510000	6.704469E-6
50.520000	3.819683E-6
50.530000	4.790043E-6
50.540000	3.751443E-6
50.550000	4.205517E-6
50.560000	5.862506E-6
50.570000	4.371036E-6
50.580000	5.945158E-6
50.590000	5.327788E-6
50.600000	5.541268E-6
50.610000	5.972025E-6
50.620000	3.905956E-6
50.630000	5.354314E-6
50.640000	6.059842E-6
50.650000	3.478903E-6
50.660000	5.565146E-6
50.670000	6.028919E-6
50.680000	4.136514E-6
50.690000	4.126191E-6
50.700000	4.792168E-6
50.710000	3.872712E-6
50.720000	3.789184E-6
50.730000	6.276795E-6
50.740000	3.724245E-6
50.750000	6.357280E-6
50.760000	4.088502E-6
50.770000	6.397327E-6
50.780000	6.023390E-6
50.790000	6.654049E-6
50.800000	4.148007E-6
50.810000	4.057654E-6
50.820000	4.232305E-6
50.830000	4.224060E-6
50.840000	4.233750E-6
50.850000	4.238677E-6
50.860000	4.585243E-6
50.870000	5.207330E-6
50.880000	4.795898E-6
50.890000	3.889813E-6
50.900000	6.718551E-6
50.910000	3.798286E-6
50.920000	4.083378E-6
50.930000	4.154482E-6
50.940000	6.877481E-6
50.950000	4.275650E-6
50.960000	5.776484E-6
50.970000	3.997263E-6
50.980000	4.303197E-6
50.990000	4.315869E-6
51.000000	4.334847E-6
51.010000	4.359124E-6
51.020000	4.348596E-6
51.030000	4.342452E-6
51.040000	4.351981E-6
51.050000	4.396721E-6
51.060000	4.359360E-6
51.070000	4.354550E-6
51.080000	4.392456E-6
51.090000	4.396379E-6
51.100000	4.395653E-6
51.110000	4.419363E-6
51.120000	4.408314E-6
51.130000	4.425357E-6
51.140000	4.442778E-6
51.150000	4.461572E-6
51.160000	4.440712E-6
51.170000	4.461971E-6
51.180000	4.489957E-6
51.190000	4.478607E-6
51.200000	4.497522E-6
51.210000	4.530810E-6
51.220000	4.534934E-6
51.230000	4.537706E-6
51.240000	4.575192E-6
51.250000	4.573116E-6
51.260000	4.609397E-6
51.270000	4.593520E-6
51.280000	4.641505E-6
51.290000	4.648565E-6
51.300000	4.701575E-6
51.310000	4.710005E-6
51.320000	4.757431E-6
51.330000	4.807323E-6
51.340000	4.843742E-6
51.350000	4.908221E-6
51.360000	4.966087E-6
51.370000	5.035622E-6
51.380000	5.121875E-6
51.390000	5.192760E-6
51.400000	5.291030E-6
51.410000	5.363646E-6
51.420000	5.513725E-6
51.430000	5.663329E-6
51.440000	5.748290E-6
51.450000	5.967318E-6
51.460000	6.145280E-6
51.470000	6.331091E-6
51.480000	6.473730E-6
51.490000	6.796998E-6
51.500000	7.060192E-6
51.510000	7.247168E-6
51.520000	7.628100E-6
51.530000	7.965427E-6
51.540000	8.206366E-6
51.550000	8.627411E-6
51.560000	8.964729E-6
51.570000	9.357202E-6
51.580000	9.681830E-6
51.590000	1.021842E-5
51.600000	1.064944E-5
51.610000	1.129944E-5
51.620000	1.157230E-5
51.630000	1.201478E-5
51.640000	1.263237E-5
51.650000	1.300760E-5
51.660000	1.638096E-5
51.670000	1.547866E-5
51.680000	1.507220E-5
51.690000	1.768794E-5
51.700000	1.636071E-5
51.710000	1.821383E-5
51.720000	1.648181E-5
51.730000	1.926387E-5
51.740000	1.941593E-5
51.750000	1.933499E-5
51.760000	2.011372E-5
51.770000	2.027298E-5
51.780000	2.122567E-5
51.790000	2.177857E-5
51.800000	2.281196E-5
51.810000	2.349560E-5
51.820000	2.400311E-5
51.830000	2.507415E-5
51.840000	2.549744E-5
51.850000	2.661734E-5
51.860000	2.730578E-5
51.870000	2.816484E-5
51.880000	2.900522E-5
51.890000	2.972254E-5
51.900000	3.075428E-5
51.910000	3.148866E-5
51.920000	3.225136E-5
51.930000	3.325333E-5
51.940000	3.409324E-5
51.950000	3.481303E-5
51.960000	3.591291E-5
51.970000	3.690791E-5
51.980000	3.810405E-5
51.990000	3.872325E-5
52.000000	3.975675E-5
52.010000	4.034498E-5
52.020000	4.158689E-5
52.030000	4.246406E-5
52.040000	4.409609E-5
52.050000	4.434208E-5
52.060000	4.583065E-5
52.070000	4.682026E-5
52.080000	4.802852E-5
52.090000	4.892365E-5
52.100000	5.010243E-5
52.110000	5.116912E-5
52.120000	5.223498E-5
52.130000	5.326480E-5
52.140000	5.477423E-5
52.150000	5.569232E-5
52.160000	5.731469E-5
52.170000	5.795573E-5
52.180000	5.906743E-5
52.190000	6.063555E-5
52.200000	6.146644E-5
52.210000	6.288113E-5
52.220000	6.430538E-5
52.230000	6.485382E-5
52.240000	6.676667E-5
52.250000	6.840869E-5
52.260000	6.908685E-5
52.270000	7.062483E-5
52.280000	7.199009E-5
52.290000	7.323688E-5
52.300000	7.452522E-5
52.310000	7.613293E-5
52.320000	7.742970E-5
52.330000	7.856144E-5
52.340000	8.015157E-5
52.350000	8.171808E-5
52.360000	8.273638E-5
52.370000	8.385854E-5
52.380000	8.543051E-5
52.390000	8.617562E-5
52.400000	8.831810E-5
52.410000	8.917738E-5
52.420000	8.942904E-5
52.430000	9.263563E-5
52.440000	9.451076E-5
52.450000	9.541375E-5
52.460000	9.739179E-5
52.470000	9.900060E-5
52.480000	9.987060E-5
52.490000	0.000102
52.500000	0.000103
52.510000	0.000104
52.520000	0.000106
52.530000	0.000109
52.540000	0.000111
52.550000	0.000112
52.560000	0.000113
52.570000	0.000116
52.580000	0.000118
52.590000	0.000120
52.600000	0.000121
52.610000	0.000123
52.620000	0.000124
52.630000	0.000125
52.640000	0.000128
52.650000	0.000130
52.660000	0.000131
52.670000	0.000133
52.680000	0.000135
52.690000	0.000136
52.700000	0.000138
52.710000	0.000140
52.720000	0.000141
52.730000	0.000144
52.740000	0.000145
52.750000	0.000147
52.760000	0.000150
52.770000	0.000151
52.780000	0.000153
52.790000	0.000155
52.800000	0.000157
52.810000	0.000159
52.820000	0.000160
52.830000	0.000163
52.840000	0.000165
52.850000	0.000167
52.860000	0.000168
52.870000	0.000170
52.880000	0.000173
52.890000	0.000174
52.900000	0.000177
52.910000	0.000177
52.920000	0.000180
52.930000	0.000182
52.940000	0.000185
52.950000	0.000186
52.960000	0.000188
52.970000	0.000190
52.980000	0.000192
52.990000	0.000196
53.000000	0.000198
53.010000	0.000199
53.020000	0.000201
53.030000	0.000203
53.040000	0.000205
53.050000	0.000207
53.060000	0.005605
53.070000	0.000212
53.080000	0.000213
53.090000	0.000216
53.100000	0.000218
53.110000	0.000219
53.120000	0.000222
53.130000	0.000224
53.140000	0.000227
53.150000	0.000229
53.160000	0.000230
53.170000	0.000234
53.180000	0.000236
53.190000	0.000240
53.200000	0.000242
53.210000	0.000242
53.220000	0.000244
53.230000	0.000246
53.240000	0.000249
53.250000	0.000253
53.260000	0.000254
53.270000	0.000255
53.280000	0.000258
53.290000	0.000262
53.300000	0.000263
53.310000	0.000264
53.320000	0.000268
53.330000	0.000269
53.340000	0.000273
53.350000	0.000276
53.360000	0.000279
53.370000	0.000281
53.380000	0.000284
53.390000	0.000287
53.400000	0.000288
53.410000	0.000290
53.420000	0.000293
53.430000	0.000296
53.440000	0.000299
53.450000	0.000301
53.460000	0.000305
53.470000	0.000308
53.480000	0.000308
53.490000	0.000311
53.500000	0.000315
53.510000	0.000318
53.520000	0.000321
53.530000	0.000321
53.540000	0.000325
53.550000	0.000327
53.560000	0.000330
53.570000	0.000335
53.580000	0.000338
53.590000	0.000340
53.600000	0.000342
53.610000	0.000345
53.620000	0.000346
53.630000	0.000349
53.640000	0.000355
53.650000	0.000355
53.660000	0.000356
53.670000	0.000359
53.680000	0.000363
53.690000	0.000364
53.700000	0.000368
53.710000	0.000370
53.720000	0.000375
53.730000	0.000377
53.740000	0.000380
53.750000	0.000383
53.760000	0.000383
53.770000	0.000385
53.780000	0.000390
53.790000	0.000393
53.800000	0.000396
53.810000	0.000400
53.820000	0.000403
53.830000	0.000407
53.840000	0.000409
53.850000	0.000412
53.860000	0.000413
53.870000	0.000419
53.880000	0.000420
53.890000	0.000424
53.900000	0.000424
53.910000	0.000430
53.920000	0.000433
53.930000	0.000436
53.940000	0.000439
53.950000	0.000440
53.960000	0.000443
53.970000	0.000450
53.980000	0.000450
53.990000	0.000452
54.000000	0.000457
