Voltage[V]	Current[mA]
50.000000	4.339277E-6
50.010000	3.979252E-6
50.020000	4.605188E-6
50.030000	6.239621E-6
50.040000	6.190016E-6
50.050000	3.790716E-6
50.060000	3.877727E-6
50.070000	6.580255E-6
50.080000	4.365503E-6
50.090000	4.294302E-6
50.100000	4.526200E-6
50.110000	3.963936E-6
50.120000	4.485521E-6
50.130000	6.669131E-6
50.140000	6.217742E-6
50.150000	6.247399E-6
50.160000	6.345460E-6
50.170000	5.208382E-6
50.180000	6.237807E-6
50.190000	6.011724E-6
50.200000	6.443095E-6
50.210000	6.493737E-6
50.220000	3.840351E-6
50.230000	6.506604E-6
50.240000	6.115226E-6
50.250000	4.202339E-6
50.260000	6.371372E-6
50.270000	4.412156E-6
50.280000	4.416397E-6
50.290000	4.419195E-6
50.300000	4.419026E-6
50.310000	4.397487E-6
50.320000	4.161135E-6
50.330000	6.492797E-6
50.340000	6.117075E-6
50.350000	6.820576E-6
50.360000	3.982839E-6
50.370000	7.121506E-6
50.380000	4.106955E-6
50.390000	4.523724E-6
50.400000	5.253277E-6
50.410000	6.611921E-6
50.420000	6.641540E-6
50.430000	5.119702E-6
50.440000	4.060468E-6
50.450000	4.325510E-6
50.460000	6.541645E-6
50.470000	5.610243E-6
50.480000	4.368486E-6
50.490000	6.808022E-6
50.500000	4.439491E-6
50.510000	4.255722E-6
50.520000	6.977553E-6
50.530000	4.312791E-6
50.540000	4.271942E-6
50.550000	7.000172E-6
50.560000	4.466759E-6
50.570000	4.024874E-6
50.580000	6.741501E-6
50.590000	7.115890E-6
50.600000	7.008780E-6
50.610000	7.261206E-6
50.620000	6.871803E-6
50.630000	7.079223E-6
50.640000	4.827457E-6
50.650000	7.213151E-6
50.660000	6.371475E-6
50.670000	6.950523E-6
50.680000	4.286707E-6
50.690000	4.245043E-6
50.700000	5.342068E-6
50.710000	7.578780E-6
50.720000	3.931813E-6
50.730000	6.412837E-6
50.740000	3.898694E-6
50.750000	4.472485E-6
50.760000	4.341969E-6
50.770000	4.536219E-6
50.780000	4.321951E-6
50.790000	5.810513E-6
50.800000	5.362303E-6
50.810000	4.367869E-6
50.820000	7.409189E-6
50.830000	5.050087E-6
50.840000	4.624072E-6
50.850000	5.181118E-6
50.860000	4.468679E-6
50.870000	4.422986E-6
50.880000	4.458514E-6
50.890000	4.588385E-6
50.900000	4.450516E-6
50.910000	4.573991E-6
50.920000	4.090903E-6
50.930000	4.454318E-6
50.940000	4.146603E-6
50.950000	5.904732E-6
50.960000	7.014281E-6
50.970000	4.203953E-6
50.980000	5.792667E-6
50.990000	7.234342E-6
51.000000	4.607971E-6
51.010000	4.520680E-6
51.020000	4.577966E-6
51.030000	4.331553E-6
51.040000	7.311299E-6
51.050000	4.101560E-6
51.060000	7.291307E-6
51.070000	4.429219E-6
51.080000	7.303569E-6
51.090000	6.177574E-6
51.100000	4.463412E-6
51.110000	7.069249E-6
51.120000	7.764743E-6
51.130000	6.963437E-6
51.140000	4.082428E-6
51.150000	4.568735E-6
51.160000	4.476572E-6
51.170000	4.523562E-6
51.180000	5.580651E-6
51.190000	4.961771E-6
51.200000	4.417756E-6
51.210000	5.735664E-6
51.220000	5.923181E-6
51.230000	7.368699E-6
51.240000	7.333875E-6
51.250000	5.958376E-6
51.260000	4.766610E-6
51.270000	7.354599E-6
51.280000	4.689515E-6
51.290000	4.860726E-6
51.300000	4.570915E-6
51.310000	5.670057E-6
51.320000	7.375293E-6
51.330000	4.588537E-6
51.340000	4.514453E-6
51.350000	8.125601E-6
51.360000	6.278542E-6
51.370000	7.783286E-6
51.380000	8.057722E-6
51.390000	4.824580E-6
51.400000	5.006459E-6
51.410000	8.062168E-6
51.420000	7.608365E-6
51.430000	7.631866E-6
51.440000	8.184882E-6
51.450000	7.617328E-6
51.460000	5.016483E-6
51.470000	7.761511E-6
51.480000	5.008967E-6
51.490000	4.796071E-6
51.500000	5.295058E-6
51.510000	4.823753E-6
51.520000	7.963544E-6
51.530000	7.966038E-6
51.540000	7.931992E-6
51.550000	8.548698E-6
51.560000	7.541511E-6
51.570000	5.743955E-6
51.580000	5.841976E-6
51.590000	5.975255E-6
51.600000	5.696787E-6
51.610000	5.170626E-6
51.620000	7.863028E-6
51.630000	5.715597E-6
51.640000	8.926067E-6
51.650000	9.105903E-6
51.660000	8.894358E-6
51.670000	7.338065E-6
51.680000	6.050191E-6
51.690000	9.988785E-6
51.700000	1.016294E-5
51.710000	1.039941E-5
51.720000	1.056943E-5
51.730000	1.068409E-5
51.740000	1.111433E-5
51.750000	1.104845E-5
51.760000	1.166925E-5
51.770000	1.185006E-5
51.780000	1.223304E-5
51.790000	1.258231E-5
51.800000	1.001151E-5
51.810000	1.098132E-5
51.820000	1.384797E-5
51.830000	1.189903E-5
51.840000	1.229308E-5
51.850000	1.305938E-5
51.860000	1.345440E-5
51.870000	1.404883E-5
51.880000	1.602796E-5
51.890000	1.758632E-5
51.900000	1.780699E-5
51.910000	1.814608E-5
51.920000	1.742448E-5
51.930000	1.882391E-5
51.940000	1.950863E-5
51.950000	2.060414E-5
51.960000	2.063019E-5
51.970000	0.002036
51.980000	0.002122
51.990000	0.002181
52.000000	0.002253
52.010000	0.002323
52.020000	0.002406
52.030000	0.002444
52.040000	0.002541
52.050000	0.002599
52.060000	0.002660
52.070000	0.002707
52.080000	0.002794
52.090000	0.002858
52.100000	0.002929
52.110000	0.002973
52.120000	0.003035
52.130000	0.003092
52.140000	0.003169
52.150000	0.003215
52.160000	0.003263
52.170000	0.003313
52.180000	0.003373
52.190000	0.003431
52.200000	0.003469
52.210000	0.003516
52.220000	0.003546
52.230000	0.003603
52.240000	0.003645
52.250000	0.003684
52.260000	0.003727
52.270000	0.003753
52.280000	0.003801
52.290000	0.003844
52.300000	0.003882
52.310000	0.003922
52.320000	0.003950
52.330000	0.003976
52.340000	0.004009
52.350000	0.004041
52.360000	0.004068
52.370000	0.004109
52.380000	0.004128
52.390000	0.004164
52.400000	0.004187
52.410000	0.004214
52.420000	0.004231
52.430000	0.004273
52.440000	0.004299
52.450000	0.004320
52.460000	0.004350
52.470000	0.004378
52.480000	0.004396
52.490000	0.004419
52.500000	0.004443
52.510000	0.004468
52.520000	0.004487
52.530000	0.004515
52.540000	0.004533
52.550000	0.004556
52.560000	0.004573
52.570000	0.004619
52.580000	0.004635
52.590000	0.004652
52.600000	0.004674
52.610000	0.004697
52.620000	0.004706
52.630000	0.004729
52.640000	0.004749
52.650000	0.004769
52.660000	0.004782
52.670000	0.004800
52.680000	0.004819
52.690000	0.004842
52.700000	0.004850
52.710000	0.004871
52.720000	0.004887
52.730000	0.004902
52.740000	0.004919
52.750000	0.004937
52.760000	0.004951
52.770000	0.004968
52.780000	0.004984
52.790000	0.004995
52.800000	0.005006
52.810000	0.005031
52.820000	0.005041
52.830000	0.005059
52.840000	0.005070
52.850000	0.005088
52.860000	0.005101
52.870000	0.005117
52.880000	0.005132
52.890000	0.005147
52.900000	0.005155
52.910000	0.005173
52.920000	0.005174
52.930000	0.005191
52.940000	0.005207
52.950000	0.005223
52.960000	0.005240
52.970000	0.005251
52.980000	0.005254
52.990000	0.005277
53.000000	0.005287
