Voltage[V]	Current[mA]
50.000000	3.243162E-6
50.010000	3.966147E-6
50.020000	4.114383E-6
50.030000	3.593962E-6
50.040000	3.358382E-6
50.050000	4.205365E-6
50.060000	4.144979E-6
50.070000	3.343788E-6
50.080000	3.398338E-6
50.090000	3.729089E-6
50.100000	3.289494E-6
50.110000	3.418110E-6
50.120000	3.389527E-6
50.130000	4.207818E-6
50.140000	4.453339E-6
50.150000	4.243042E-6
50.160000	3.439740E-6
50.170000	4.384827E-6
50.180000	3.302555E-6
50.190000	3.394135E-6
50.200000	4.409057E-6
50.210000	3.345747E-6
50.220000	4.463417E-6
50.230000	3.813530E-6
50.240000	3.165495E-6
50.250000	4.498292E-6
50.260000	4.518747E-6
50.270000	3.355669E-6
50.280000	4.724496E-6
50.290000	4.511875E-6
50.300000	3.493054E-6
50.310000	4.560163E-6
50.320000	4.540972E-6
50.330000	3.979142E-6
50.340000	4.865747E-6
50.350000	4.788123E-6
50.360000	4.554556E-6
50.370000	3.586243E-6
50.380000	4.602907E-6
50.390000	4.591511E-6
50.400000	3.469804E-6
50.410000	3.571448E-6
50.420000	4.767046E-6
50.430000	4.157351E-6
50.440000	3.635156E-6
50.450000	3.450218E-6
50.460000	4.397807E-6
50.470000	3.773877E-6
50.480000	4.921735E-6
50.490000	3.652267E-6
50.500000	4.409187E-6
50.510000	4.158501E-6
50.520000	4.850857E-6
50.530000	4.355655E-6
50.540000	3.582633E-6
50.550000	3.698253E-6
50.560000	3.794188E-6
50.570000	3.618933E-6
50.580000	3.533790E-6
50.590000	3.699199E-6
50.600000	4.349032E-6
50.610000	4.468053E-6
50.620000	4.158560E-6
50.630000	5.063273E-6
50.640000	4.512944E-6
50.650000	5.074420E-6
50.660000	3.771319E-6
50.670000	3.415096E-6
50.680000	4.555383E-6
50.690000	3.818956E-6
50.700000	3.400147E-6
50.710000	4.531006E-6
50.720000	4.575227E-6
50.730000	4.757449E-6
50.740000	4.572015E-6
50.750000	4.127032E-6
50.760000	3.307659E-6
50.770000	4.611047E-6
50.780000	4.598319E-6
50.790000	4.649141E-6
50.800000	3.749475E-6
50.810000	4.705874E-6
50.820000	5.102991E-6
50.830000	3.570628E-6
50.840000	3.744191E-6
50.850000	3.997656E-6
50.860000	3.796959E-6
50.870000	4.163845E-6
50.880000	3.812134E-6
50.890000	4.262752E-6
50.900000	3.588480E-6
50.910000	4.765867E-6
50.920000	3.815226E-6
50.930000	3.402846E-6
50.940000	5.368298E-6
50.950000	3.756789E-6
50.960000	3.917275E-6
50.970000	3.888869E-6
50.980000	4.827661E-6
50.990000	4.199576E-6
51.000000	4.821985E-6
51.010000	4.541505E-6
51.020000	3.763443E-6
51.030000	3.966233E-6
51.040000	4.930392E-6
51.050000	3.610405E-6
51.060000	4.430796E-6
51.070000	3.999486E-6
51.080000	5.612746E-6
51.090000	4.037032E-6
51.100000	5.693102E-6
51.110000	5.022721E-6
51.120000	3.954757E-6
51.130000	5.113237E-6
51.140000	4.060135E-6
51.150000	4.389957E-6
51.160000	5.652113E-6
51.170000	3.772589E-6
51.180000	6.259116E-6
51.190000	4.594371E-6
51.200000	6.177548E-6
51.210000	3.789241E-6
51.220000	4.480198E-6
51.230000	4.782646E-6
51.240000	7.263731E-6
51.250000	5.414338E-6
51.260000	4.892905E-6
51.270000	4.665699E-6
51.280000	5.000133E-6
51.290000	6.637022E-6
51.300000	5.491801E-6
51.310000	7.884160E-6
51.320000	5.249650E-6
51.330000	8.300812E-6
51.340000	7.138879E-6
51.350000	8.053450E-6
51.360000	8.146031E-6
51.370000	6.026992E-6
51.380000	7.197203E-6
51.390000	8.888292E-6
51.400000	6.169216E-6
51.410000	9.130657E-6
51.420000	7.011091E-6
51.430000	9.274440E-6
51.440000	9.676631E-6
51.450000	9.811613E-6
51.460000	1.098229E-5
51.470000	8.657564E-6
51.480000	1.049576E-5
51.490000	1.165040E-5
51.500000	1.119936E-5
51.510000	9.602719E-6
51.520000	1.245381E-5
51.530000	1.181965E-5
51.540000	1.255220E-5
51.550000	1.195270E-5
51.560000	1.409100E-5
51.570000	1.417394E-5
51.580000	1.351348E-5
51.590000	1.311236E-5
51.600000	1.589144E-5
51.610000	1.455264E-5
51.620000	1.607300E-5
51.630000	1.735681E-5
51.640000	1.836004E-5
51.650000	1.842347E-5
51.660000	1.920121E-5
51.670000	1.810586E-5
51.680000	1.806253E-5
51.690000	1.992749E-5
51.700000	2.011429E-5
51.710000	2.055219E-5
51.720000	2.132372E-5
51.730000	2.179009E-5
51.740000	2.258785E-5
51.750000	2.329758E-5
51.760000	2.428807E-5
51.770000	2.496595E-5
51.780000	2.583257E-5
51.790000	2.637109E-5
51.800000	2.704787E-5
51.810000	2.810479E-5
51.820000	2.870061E-5
51.830000	2.968679E-5
51.840000	3.035071E-5
51.850000	3.126686E-5
51.860000	3.194688E-5
51.870000	3.288375E-5
51.880000	3.377756E-5
51.890000	3.451648E-5
51.900000	3.551093E-5
51.910000	3.661599E-5
51.920000	3.720391E-5
51.930000	3.856602E-5
51.940000	3.900434E-5
51.950000	4.023401E-5
51.960000	4.118843E-5
51.970000	4.225648E-5
51.980000	4.273847E-5
51.990000	4.370654E-5
52.000000	4.513930E-5
52.010000	4.577902E-5
52.020000	4.702240E-5
52.030000	4.827771E-5
52.040000	4.925618E-5
52.050000	5.012942E-5
52.060000	5.120906E-5
52.070000	5.206439E-5
52.080000	5.249060E-5
52.090000	5.423861E-5
52.100000	5.512510E-5
52.110000	5.688991E-5
52.120000	5.781728E-5
52.130000	5.895463E-5
52.140000	5.939839E-5
52.150000	6.080540E-5
52.160000	6.273130E-5
52.170000	6.339455E-5
52.180000	6.495102E-5
52.190000	6.576330E-5
52.200000	6.726177E-5
52.210000	6.829824E-5
52.220000	6.943517E-5
52.230000	7.064257E-5
52.240000	7.196829E-5
52.250000	7.331219E-5
52.260000	7.358212E-5
52.270000	7.521266E-5
52.280000	7.719547E-5
52.290000	7.836016E-5
52.300000	7.926224E-5
52.310000	8.073904E-5
52.320000	8.198023E-5
52.330000	8.350995E-5
52.340000	8.479982E-5
52.350000	8.591342E-5
52.360000	8.755624E-5
52.370000	8.880249E-5
52.380000	9.001806E-5
52.390000	9.093373E-5
52.400000	9.316464E-5
52.410000	9.523372E-5
52.420000	9.487469E-5
52.430000	9.725969E-5
52.440000	9.877802E-5
52.450000	0.000100
52.460000	0.000102
52.470000	0.000103
52.480000	0.000104
52.490000	0.000105
52.500000	0.000107
52.510000	0.000108
52.520000	0.000110
52.530000	0.000112
52.540000	0.000113
52.550000	0.000116
52.560000	0.000116
52.570000	0.000120
52.580000	0.000121
52.590000	0.000123
52.600000	0.000124
52.610000	0.000125
52.620000	0.000127
52.630000	0.000130
52.640000	0.000131
52.650000	0.000132
52.660000	0.000134
52.670000	0.000135
52.680000	0.000137
52.690000	0.000139
52.700000	0.000140
52.710000	0.000142
52.720000	0.000144
52.730000	0.000145
52.740000	0.000148
52.750000	0.000149
52.760000	0.000150
52.770000	0.000154
52.780000	0.000155
52.790000	0.000155
52.800000	0.000157
52.810000	0.000159
52.820000	0.000162
52.830000	0.000163
52.840000	0.000165
52.850000	0.000167
52.860000	0.000169
52.870000	0.000171
52.880000	0.000173
52.890000	0.000174
52.900000	0.000176
52.910000	0.000178
52.920000	0.000180
52.930000	0.000182
52.940000	0.000183
52.950000	0.000185
52.960000	0.000187
52.970000	0.000189
52.980000	0.000191
52.990000	0.000193
53.000000	0.000195
53.010000	0.000197
53.020000	0.000199
53.030000	0.000200
53.040000	0.000203
53.050000	0.000205
53.060000	0.000208
53.070000	0.000209
53.080000	0.005664
53.090000	0.000213
53.100000	0.000215
53.110000	0.000217
53.120000	0.000219
53.130000	0.000221
53.140000	0.000224
53.150000	0.000225
53.160000	0.000227
53.170000	0.000229
53.180000	0.000232
53.190000	0.000233
53.200000	0.000235
53.210000	0.000237
53.220000	0.000240
53.230000	0.000243
53.240000	0.000245
53.250000	0.000246
53.260000	0.000248
53.270000	0.000250
53.280000	0.000253
53.290000	0.000254
53.300000	0.000257
53.310000	0.000259
53.320000	0.000263
53.330000	0.000264
53.340000	0.000266
53.350000	0.000268
53.360000	0.000270
53.370000	0.000273
53.380000	0.000275
53.390000	0.000277
53.400000	0.000280
53.410000	0.000282
53.420000	0.000284
53.430000	0.000285
53.440000	0.000288
53.450000	0.000289
53.460000	0.000293
53.470000	0.000297
53.480000	0.000298
53.490000	0.000301
53.500000	0.000302
53.510000	0.000306
53.520000	0.000309
53.530000	0.000310
53.540000	0.000313
53.550000	0.000314
53.560000	0.000316
53.570000	0.000320
53.580000	0.000324
53.590000	0.000325
53.600000	0.000327
53.610000	0.000329
53.620000	0.000331
53.630000	0.000336
53.640000	0.000335
53.650000	0.000340
53.660000	0.000343
53.670000	0.000346
53.680000	0.000348
53.690000	0.000349
53.700000	0.000353
53.710000	0.000354
53.720000	0.000357
53.730000	0.000359
53.740000	0.000362
53.750000	0.000363
53.760000	0.000367
53.770000	0.000369
53.780000	0.000374
53.790000	0.000376
53.800000	0.000378
53.810000	0.000379
53.820000	0.000383
53.830000	0.000387
53.840000	0.000392
53.850000	0.000391
53.860000	0.000396
53.870000	0.000397
53.880000	0.000401
53.890000	0.000402
53.900000	0.000405
53.910000	0.000409
53.920000	0.000410
53.930000	0.000413
53.940000	0.000417
53.950000	0.000420
53.960000	0.000422
53.970000	0.000426
53.980000	0.000428
53.990000	0.000433
54.000000	0.000432
