Voltage[V]	Current[mA]
51.700000	7.504751E-6
51.701000	8.422270E-6
51.702000	8.829608E-6
51.703000	9.863548E-6
51.704000	1.016620E-5
51.705000	9.926650E-6
51.706000	7.365101E-6
51.707000	8.436563E-6
51.708000	9.141877E-6
51.709000	8.528183E-6
51.710000	8.603678E-6
51.711000	1.041096E-5
51.712000	1.057314E-5
51.713000	9.164054E-6
51.714000	8.818337E-6
51.715000	7.995606E-6
51.716000	9.106857E-6
51.717000	7.448753E-6
51.718000	9.966973E-6
51.719000	1.070749E-5
51.720000	9.671830E-6
51.721000	7.694241E-6
51.722000	9.244761E-6
51.723000	9.184414E-6
51.724000	1.051336E-5
51.725000	1.075498E-5
51.726000	9.436420E-6
51.727000	7.360117E-6
51.728000	9.204461E-6
51.729000	9.689459E-6
51.730000	9.472841E-6
51.731000	1.011600E-5
51.732000	1.093364E-5
51.733000	1.092562E-5
51.734000	9.829496E-6
51.735000	8.637309E-6
51.736000	7.609145E-6
51.737000	8.922351E-6
51.738000	1.044838E-5
51.739000	1.015297E-5
51.740000	1.117083E-5
51.741000	1.119237E-5
51.742000	1.120432E-5
51.743000	1.001971E-5
51.744000	7.499415E-6
51.745000	1.013093E-5
51.746000	1.076242E-5
51.747000	1.088569E-5
51.748000	1.088337E-5
51.749000	1.178165E-5
51.750000	1.166834E-5
51.751000	9.742045E-6
51.752000	1.092932E-5
51.753000	1.096097E-5
51.754000	1.092576E-5
51.755000	1.212628E-5
51.756000	1.214539E-5
51.757000	1.184225E-5
51.758000	9.599624E-6
51.759000	1.056925E-5
51.760000	1.140816E-5
51.761000	1.115645E-5
51.762000	1.172598E-5
51.763000	1.216273E-5
51.764000	1.206904E-5
51.765000	1.192268E-5
51.766000	1.168987E-5
51.767000	9.119001E-6
51.768000	1.171564E-5
51.769000	1.238700E-5
51.770000	1.244359E-5
51.771000	1.213440E-5
51.772000	9.963195E-6
51.773000	1.195107E-5
51.774000	1.159628E-5
51.775000	1.268290E-5
51.776000	1.286148E-5
51.777000	1.035962E-5
51.778000	1.197879E-5
51.779000	1.235501E-5
51.780000	1.216587E-5
51.781000	1.219188E-5
51.782000	1.276217E-5
51.783000	1.277392E-5
51.784000	1.284733E-5
51.785000	1.016551E-5
51.786000	1.158035E-5
51.787000	1.262113E-5
51.788000	1.247878E-5
51.789000	1.292760E-5
51.790000	1.309593E-5
51.791000	1.310226E-5
51.792000	1.276352E-5
51.793000	1.196566E-5
51.794000	1.075256E-5
51.795000	1.072968E-5
51.796000	1.275744E-5
51.797000	1.311689E-5
51.798000	1.242574E-5
51.799000	1.335303E-5
51.800000	1.351773E-5
51.801000	1.344682E-5
51.802000	1.333668E-5
51.803000	1.126719E-5
51.804000	1.231845E-5
51.805000	1.249683E-5
51.806000	1.251991E-5
51.807000	1.263465E-5
51.808000	1.382193E-5
51.809000	1.389296E-5
51.810000	1.309541E-5
51.811000	1.395364E-5
51.812000	1.376959E-5
51.813000	1.250498E-5
51.814000	1.417031E-5
51.815000	1.374987E-5
51.816000	1.426346E-5
51.817000	1.296824E-5
51.818000	1.320872E-5
51.819000	1.406171E-5
51.820000	1.228803E-5
51.821000	1.412836E-5
51.822000	1.463861E-5
51.823000	1.301180E-5
51.824000	1.322224E-5
51.825000	1.319682E-5
51.826000	1.417964E-5
51.827000	1.370180E-5
51.828000	1.391933E-5
51.829000	1.361224E-5
51.830000	1.426648E-5
51.831000	1.452152E-5
51.832000	1.443541E-5
51.833000	1.309793E-5
51.834000	1.301352E-5
51.835000	1.187888E-5
51.836000	1.489441E-5
51.837000	1.406400E-5
51.838000	1.368442E-5
51.839000	1.391975E-5
51.840000	1.449639E-5
51.841000	1.362310E-5
51.842000	1.328691E-5
51.843000	1.435892E-5
51.844000	1.458975E-5
51.845000	1.479481E-5
51.846000	1.455318E-5
51.847000	1.353273E-5
51.848000	1.476698E-5
51.849000	1.443780E-5
51.850000	1.579551E-5
51.851000	1.200354E-5
51.852000	1.504247E-5
51.853000	1.527891E-5
51.854000	1.440411E-5
51.855000	1.516483E-5
51.856000	1.664232E-5
51.857000	1.552854E-5
51.858000	1.551821E-5
51.859000	1.304224E-5
51.860000	1.621483E-5
51.861000	1.364512E-5
51.862000	1.595468E-5
51.863000	1.628904E-5
51.864000	1.612358E-5
51.865000	1.694480E-5
51.866000	1.586730E-5
51.867000	1.452100E-5
51.868000	1.692998E-5
51.869000	1.516289E-5
51.870000	1.673003E-5
51.871000	1.463185E-5
51.872000	1.667635E-5
51.873000	1.708208E-5
51.874000	1.533746E-5
51.875000	1.590968E-5
51.876000	1.756604E-5
51.877000	1.503771E-5
51.878000	1.664529E-5
51.879000	1.671494E-5
51.880000	1.642179E-5
51.881000	1.755281E-5
51.882000	1.440261E-5
51.883000	1.682840E-5
51.884000	1.756079E-5
51.885000	1.626294E-5
51.886000	1.498708E-5
51.887000	1.717053E-5
51.888000	1.602078E-5
51.889000	1.643695E-5
51.890000	1.686727E-5
51.891000	1.759989E-5
51.892000	1.653494E-5
51.893000	1.681614E-5
51.894000	1.657249E-5
51.895000	1.717169E-5
51.896000	1.797588E-5
51.897000	1.716167E-5
51.898000	1.776594E-5
51.899000	1.789971E-5
51.900000	1.628308E-5
51.901000	1.729226E-5
51.902000	1.785963E-5
51.903000	1.735348E-5
51.904000	1.700994E-5
51.905000	1.675125E-5
51.906000	1.791541E-5
51.907000	1.826510E-5
51.908000	1.693769E-5
51.909000	1.843228E-5
51.910000	1.801821E-5
51.911000	1.875085E-5
51.912000	1.690228E-5
51.913000	1.793009E-5
51.914000	1.870749E-5
51.915000	1.833677E-5
51.916000	1.738269E-5
51.917000	1.779631E-5
51.918000	1.781964E-5
51.919000	1.798828E-5
51.920000	1.841759E-5
51.921000	1.834278E-5
51.922000	1.825462E-5
51.923000	1.886417E-5
51.924000	1.802428E-5
51.925000	1.807796E-5
51.926000	1.851446E-5
51.927000	1.774179E-5
51.928000	1.899464E-5
51.929000	1.858886E-5
51.930000	1.927718E-5
51.931000	1.914277E-5
51.932000	1.921937E-5
51.933000	1.965531E-5
51.934000	1.819481E-5
51.935000	2.051801E-5
51.936000	1.978311E-5
51.937000	2.007399E-5
51.938000	1.913313E-5
51.939000	1.986914E-5
51.940000	2.061446E-5
51.941000	2.061475E-5
51.942000	1.905992E-5
51.943000	1.957415E-5
51.944000	2.061189E-5
51.945000	2.061440E-5
51.946000	2.054765E-5
51.947000	2.061607E-5
51.948000	2.061782E-5
51.949000	2.061702E-5
51.950000	2.061711E-5
51.951000	2.061685E-5
51.952000	2.061758E-5
51.953000	2.061777E-5
51.954000	2.061674E-5
51.955000	2.073771E-5
51.956000	2.070881E-5
51.957000	2.058430E-5
51.958000	2.072030E-5
51.959000	2.052371E-5
51.960000	2.091630E-5
51.961000	2.055077E-5
51.962000	2.048617E-5
51.963000	2.061731E-5
51.964000	2.062048E-5
51.965000	2.161375E-5
51.966000	0.002031
51.967000	0.002015
51.968000	0.002024
51.969000	0.002028
51.970000	0.002027
51.971000	0.002030
51.972000	0.002033
51.973000	0.002035
51.974000	0.002030
51.975000	0.002028
51.976000	0.002090
51.977000	0.002107
51.978000	0.002103
51.979000	0.002104
51.980000	0.002098
51.981000	0.002096
51.982000	0.002097
51.983000	0.002091
51.984000	0.002083
51.985000	0.002181
51.986000	0.002140
51.987000	0.002152
51.988000	0.002154
51.989000	0.002149
51.990000	0.002165
51.991000	0.002166
51.992000	0.002165
51.993000	0.002165
51.994000	0.002156
51.995000	0.002151
51.996000	0.002229
51.997000	0.002227
51.998000	0.002245
51.999000	0.002229
52.000000	0.002229
52.001000	0.002224
52.002000	0.002226
52.003000	0.002227
52.004000	0.002238
52.005000	0.002301
52.006000	0.002291
52.007000	0.002301
52.008000	0.002286
52.009000	0.002293
52.010000	0.002286
52.011000	0.002292
52.012000	0.002294
52.013000	0.002295
52.014000	0.002306
52.015000	0.002296
52.016000	0.002354
52.017000	0.002353
52.018000	0.002353
52.019000	0.002351
52.020000	0.002353
52.021000	0.002356
52.022000	0.002358
52.023000	0.002371
52.024000	0.002366
52.025000	0.002438
52.026000	0.002443
52.027000	0.002442
52.028000	0.002428
52.029000	0.002435
52.030000	0.002427
52.031000	0.002432
52.032000	0.002428
52.033000	0.002421
52.034000	0.002439
52.035000	0.002412
52.036000	0.002485
52.037000	0.002499
52.038000	0.002491
52.039000	0.002499
52.040000	0.002496
52.041000	0.002505
52.042000	0.002487
52.043000	0.002499
52.044000	0.002511
52.045000	0.002503
52.046000	0.002563
52.047000	0.002566
52.048000	0.002568
52.049000	0.002546
52.050000	0.002556
52.051000	0.002534
52.052000	0.002547
52.053000	0.002548
52.054000	0.002552
52.055000	0.002616
52.056000	0.002618
52.057000	0.002623
52.058000	0.002618
52.059000	0.002612
52.060000	0.002697
52.061000	0.002728
52.062000	0.002698
52.063000	0.002701
52.064000	0.002707
52.065000	0.002688
52.066000	0.002769
52.067000	0.002770
52.068000	0.002758
52.069000	0.002757
52.070000	0.002760
52.071000	0.002769
52.072000	0.002777
52.073000	0.002768
52.074000	0.002773
52.075000	0.002819
52.076000	0.002821
52.077000	0.002842
52.078000	0.002817
52.079000	0.002826
52.080000	0.002830
52.081000	0.002841
52.082000	0.002828
52.083000	0.002829
52.084000	0.002810
52.085000	0.002824
52.086000	0.002878
52.087000	0.002887
52.088000	0.002888
52.089000	0.002866
52.090000	0.002866
52.091000	0.002881
52.092000	0.002882
52.093000	0.002878
52.094000	0.002887
52.095000	0.002933
52.096000	0.002931
52.097000	0.002938
52.098000	0.002951
52.099000	0.002937
52.100000	0.002927
52.101000	0.002939
52.102000	0.002946
52.103000	0.002944
52.104000	0.002942
52.105000	0.002945
52.106000	0.002992
52.107000	0.002990
52.108000	0.003006
52.109000	0.003007
52.110000	0.002993
52.111000	0.002987
52.112000	0.002999
52.113000	0.002996
52.114000	0.002991
52.115000	0.003050
52.116000	0.003055
52.117000	0.003045
52.118000	0.003039
52.119000	0.003052
52.120000	0.003038
52.121000	0.003045
52.122000	0.003051
52.123000	0.003060
52.124000	0.003056
52.125000	0.003060
52.126000	0.003108
52.127000	0.003113
52.128000	0.003098
52.129000	0.003100
52.130000	0.003098
52.131000	0.003100
52.132000	0.003093
52.133000	0.003099
52.134000	0.003168
52.135000	0.003102
52.136000	0.003153
52.137000	0.003147
52.138000	0.003160
52.139000	0.003143
52.140000	0.003148
52.141000	0.003150
52.142000	0.003164
52.143000	0.003154
52.144000	0.003152
52.145000	0.003206
52.146000	0.003194
52.147000	0.003209
52.148000	0.003202
52.149000	0.003209
52.150000	0.003189
52.151000	0.003200
52.152000	0.003197
52.153000	0.003186
52.154000	0.003196
52.155000	0.003191
52.156000	0.003251
52.157000	0.003249
52.158000	0.003261
52.159000	0.003246
52.160000	0.003242
52.161000	0.003244
52.162000	0.003254
52.163000	0.003257
52.164000	0.003245
52.165000	0.003297
52.166000	0.003301
52.167000	0.003314
52.168000	0.003302
52.169000	0.003288
52.170000	0.003301
52.171000	0.003288
52.172000	0.003288
52.173000	0.003302
52.174000	0.003296
52.175000	0.003298
52.176000	0.003346
52.177000	0.003349
52.178000	0.003396
52.179000	0.003404
52.180000	0.003415
52.181000	0.003343
52.182000	0.003334
52.183000	0.003332
52.184000	0.003348
52.185000	0.003383
52.186000	0.003381
52.187000	0.003377
52.188000	0.003391
52.189000	0.003407
52.190000	0.003397
52.191000	0.003396
52.192000	0.003391
52.193000	0.003389
52.194000	0.003384
52.195000	0.003398
52.196000	0.003426
52.197000	0.003429
52.198000	0.003426
52.199000	0.003435
52.200000	0.003421
52.201000	0.003418
52.202000	0.003424
52.203000	0.003422
52.204000	0.003426
52.205000	0.003459
52.206000	0.003454
52.207000	0.003467
52.208000	0.003457
52.209000	0.003474
52.210000	0.003463
52.211000	0.003471
52.212000	0.003465
52.213000	0.003467
52.214000	0.003466
52.215000	0.003496
52.216000	0.003511
52.217000	0.003505
52.218000	0.003507
52.219000	0.003506
52.220000	0.003508
52.221000	0.003496
52.222000	0.003506
52.223000	0.003499
52.224000	0.003509
52.225000	0.003502
52.226000	0.003550
52.227000	0.003546
52.228000	0.003554
52.229000	0.003544
52.230000	0.003560
52.231000	0.003545
52.232000	0.003547
52.233000	0.003559
52.234000	0.003544
52.235000	0.003588
52.236000	0.003591
52.237000	0.003583
52.238000	0.003593
52.239000	0.003586
52.240000	0.003579
52.241000	0.003588
52.242000	0.003577
52.243000	0.003587
52.244000	0.003579
52.245000	0.003573
52.246000	0.003618
52.247000	0.003622
52.248000	0.003625
52.249000	0.003620
52.250000	0.003614
52.251000	0.003623
52.252000	0.003621
52.253000	0.003623
52.254000	0.003628
52.255000	0.003669
52.256000	0.003660
52.257000	0.003670
52.258000	0.003670
52.259000	0.003647
52.260000	0.003658
52.261000	0.003665
52.262000	0.003664
52.263000	0.003648
52.264000	0.003661
52.265000	0.003653
52.266000	0.003701
52.267000	0.003683
52.268000	0.003701
52.269000	0.003686
52.270000	0.003687
52.271000	0.003697
52.272000	0.003698
52.273000	0.003685
52.274000	0.003699
52.275000	0.003734
52.276000	0.003719
52.277000	0.003714
52.278000	0.003723
52.279000	0.003726
52.280000	0.003721
52.281000	0.003726
52.282000	0.003732
52.283000	0.003728
52.284000	0.003720
52.285000	0.003721
52.286000	0.003751
52.287000	0.003761
52.288000	0.003767
52.289000	0.003749
52.290000	0.003768
52.291000	0.003760
52.292000	0.003764
52.293000	0.003767
52.294000	0.003759
52.295000	0.003761
52.296000	0.003789
52.297000	0.003799
52.298000	0.003791
52.299000	0.003788
52.300000	0.003798
